File: 01_XRD/data/xrd_bb_01 copy.ras
20.0000 4885 1.0000
20.0600 4598 1.0000
20.1200 4598 1.0000
20.1800 4590 1.0000
20.2400 4689 1.0000
20.3000 4604 1.0000
20.3600 4753 1.0000
20.4200 4716 1.0000
20.4800 4651 1.0000
20.5400 4637 1.0000
20.6000 4692 1.0000
20.6600 4783 1.0000
20.7200 4681 1.0000
20.7800 4727 1.0000
20.8400 4674 1.0000
20.9000 4624 1.0000
20.9600 4773 1.0000
21.0200 4806 1.0000
21.0800 4839 1.0000
21.1400 4641 1.0000
21.2000 4693 1.0000
21.2600 4762 1.0000
21.3200 4807 1.0000
21.3800 4738 1.0000
21.4400 4761 1.0000
21.5000 4712 1.0000
21.5600 4746 1.0000
21.6200 4793 1.0000
21.6800 4618 1.0000
21.7400 4703 1.0000
21.8000 4625 1.0000
21.8600 4770 1.0000
21.9200 4698 1.0000
21.9800 4876 1.0000
22.0400 4876 1.0000
22.1000 4641 1.0000
22.1600 4846 1.0000
22.2200 4856 1.0000
22.2800 4759 1.0000
22.3400 4728 1.0000
22.4000 4746 1.0000
22.4600 4786 1.0000
22.5200 4711 1.0000
22.5800 4661 1.0000
22.6400 4788 1.0000
22.7000 4844 1.0000
22.7600 4762 1.0000
22.8200 4759 1.0000
22.8800 4806 1.0000
22.9400 4767 1.0000
23.0000 4776 1.0000
23.0600 4879 1.0000
23.1200 4958 1.0000
23.1800 4708 1.0000
23.2400 4931 1.0000
23.3000 4772 1.0000
23.3600 4824 1.0000
23.4200 4721 1.0000
23.4800 4746 1.0000
23.5400 4766 1.0000
23.6000 4738 1.0000
23.6600 4833 1.0000
23.7200 4743 1.0000
23.7800 4813 1.0000
23.8400 4637 1.0000
23.9000 4958 1.0000
23.9600 4847 1.0000
24.0200 4833 1.0000
24.0800 4731 1.0000
24.1400 4812 1.0000
24.2000 4754 1.0000
24.2600 4818 1.0000
24.3200 4738 1.0000
24.3800 4759 1.0000
24.4400 4726 1.0000
24.5000 4858 1.0000
24.5600 4825 1.0000
24.6200 4799 1.0000
24.6800 4814 1.0000
24.7400 4890 1.0000
24.8000 4896 1.0000
24.8600 4864 1.0000
24.9200 4793 1.0000
24.9800 4907 1.0000
25.0400 4876 1.0000
25.1000 4764 1.0000
25.1600 4778 1.0000
25.2200 4876 1.0000
25.2800 4790 1.0000
25.3400 4974 1.0000
25.4000 4894 1.0000
25.4600 4878 1.0000
25.5200 4652 1.0000
25.5800 4805 1.0000
25.6400 4752 1.0000
25.7000 4676 1.0000
25.7600 4852 1.0000
25.8200 4841 1.0000
25.8800 4953 1.0000
25.9400 4815 1.0000
26.0000 4963 1.0000
26.0600 4765 1.0000
26.1200 4873 1.0000
26.1800 4727 1.0000
26.2400 4793 1.0000
26.3000 4773 1.0000
26.3600 4826 1.0000
26.4200 4823 1.0000
26.4800 4833 1.0000
26.5400 4880 1.0000
26.6000 4851 1.0000
26.6600 4775 1.0000
26.7200 4924 1.0000
26.7800 4836 1.0000
26.8400 4915 1.0000
26.9000 4855 1.0000
26.9600 4758 1.0000
27.0200 4732 1.0000
27.0800 4859 1.0000
27.1400 4833 1.0000
27.2000 4824 1.0000
27.2600 4784 1.0000
27.3200 4839 1.0000
27.3800 4787 1.0000
27.4400 4804 1.0000
27.5000 4809 1.0000
27.5600 4793 1.0000
27.6200 4880 1.0000
27.6800 4866 1.0000
27.7400 4808 1.0000
27.8000 4851 1.0000
27.8600 4873 1.0000
27.9200 4806 1.0000
27.9800 4908 1.0000
28.0400 4758 1.0000
28.1000 4712 1.0000
28.1600 4909 1.0000
28.2200 4811 1.0000
28.2800 4927 1.0000
28.3400 4882 1.0000
28.4000 4880 1.0000
28.4600 4859 1.0000
28.5200 4844 1.0000
28.5800 4908 1.0000
28.6400 4744 1.0000
28.7000 4688 1.0000
28.7600 4804 1.0000
28.8200 4782 1.0000
28.8800 4769 1.0000
28.9400 4730 1.0000
29.0000 4837 1.0000
29.0600 4816 1.0000
29.1200 4804 1.0000
29.1800 4823 1.0000
29.2400 4788 1.0000
29.3000 4786 1.0000
29.3600 4892 1.0000
29.4200 4892 1.0000
29.4800 4932 1.0000
29.5400 4936 1.0000
29.6000 4874 1.0000
29.6600 4851 1.0000
29.7200 4825 1.0000
29.7800 4787 1.0000
29.8400 4727 1.0000
29.9000 4736 1.0000
29.9600 4824 1.0000
30.0200 4769 1.0000
30.0800 4835 1.0000
30.1400 4943 1.0000
30.2000 4834 1.0000
30.2600 4874 1.0000
30.3200 4873 1.0000
30.3800 4701 1.0000
30.4400 4879 1.0000
30.5000 4808 1.0000
30.5600 4706 1.0000
30.6200 4942 1.0000
30.6800 4766 1.0000
30.7400 4831 1.0000
30.8000 4793 1.0000
30.8600 4776 1.0000
30.9200 4776 1.0000
30.9800 4849 1.0000
31.0400 4791 1.0000
31.1000 4809 1.0000
31.1600 4751 1.0000
31.2200 4806 1.0000
31.2800 4839 1.0000
31.3400 4723 1.0000
31.4000 4958 1.0000
31.4600 4706 1.0000
31.5200 4794 1.0000
31.5800 4830 1.0000
31.6400 4791 1.0000
31.7000 4776 1.0000
31.7600 4724 1.0000
31.8200 4721 1.0000
31.8800 4731 1.0000
31.9400 4718 1.0000
32.0000 4845 1.0000
32.0600 4878 1.0000
32.1200 4799 1.0000
32.1800 4764 1.0000
32.2400 4809 1.0000
32.3000 4749 1.0000
32.3600 4949 1.0000
32.4200 4862 1.0000
32.4800 4733 1.0000
32.5400 4795 1.0000
32.6000 4941 1.0000
32.6600 4808 1.0000
32.7200 4858 1.0000
32.7800 4755 1.0000
32.8400 4803 1.0000
32.9000 4809 1.0000
32.9600 4824 1.0000
33.0200 4776 1.0000
33.0800 4845 1.0000
33.1400 4867 1.0000
33.2000 4785 1.0000
33.2600 4871 1.0000
33.3200 4778 1.0000
33.3800 4823 1.0000
33.4400 4843 1.0000
33.5000 4771 1.0000
33.5600 4656 1.0000
33.6200 4918 1.0000
33.6800 4887 1.0000
33.7400 4751 1.0000
33.8000 4652 1.0000
33.8600 4783 1.0000
33.9200 4710 1.0000
33.9800 4807 1.0000
34.0400 4595 1.0000
34.1000 4820 1.0000
34.1600 4961 1.0000
34.2200 4850 1.0000
34.2800 4779 1.0000
34.3400 4869 1.0000
34.4000 4821 1.0000
34.4600 4782 1.0000
34.5200 4781 1.0000
34.5800 4923 1.0000
34.6400 4804 1.0000
34.7000 4808 1.0000
34.7600 4805 1.0000
34.8200 4872 1.0000
34.8800 4882 1.0000
34.9400 4872 1.0000
35.0000 4801 1.0000
35.0600 4956 1.0000
35.1200 4889 1.0000
35.1800 4718 1.0000
35.2400 4904 1.0000
35.3000 4813 1.0000
35.3600 4863 1.0000
35.4200 4804 1.0000
35.4800 4814 1.0000
35.5400 4822 1.0000
35.6000 4844 1.0000
35.6600 4732 1.0000
35.7200 4940 1.0000
35.7800 4806 1.0000
35.8400 4907 1.0000
35.9000 4900 1.0000
35.9600 4984 1.0000
36.0200 5007 1.0000
36.0800 4992 1.0000
36.1400 5167 1.0000
36.2000 5207 1.0000
36.2600 5009 1.0000
36.3200 4940 1.0000
36.3800 4951 1.0000
36.4400 5056 1.0000
36.5000 4887 1.0000
36.5600 4926 1.0000
36.6200 4787 1.0000
36.6800 4927 1.0000
36.7400 4788 1.0000
36.8000 4815 1.0000
36.8600 4883 1.0000
36.9200 4815 1.0000
36.9800 4720 1.0000
37.0400 4774 1.0000
37.1000 4810 1.0000
37.1600 4768 1.0000
37.2200 4902 1.0000
37.2800 4781 1.0000
37.3400 4835 1.0000
37.4000 4769 1.0000
37.4600 4755 1.0000
37.5200 4721 1.0000
37.5800 4902 1.0000
37.6400 4762 1.0000
37.7000 4908 1.0000
37.7600 4790 1.0000
37.8200 4835 1.0000
37.8800 4776 1.0000
37.9400 4740 1.0000
38.0000 4832 1.0000
38.0600 4920 1.0000
38.1200 4857 1.0000
38.1800 4957 1.0000
38.2400 4827 1.0000
38.3000 4845 1.0000
38.3600 4798 1.0000
38.4200 4770 1.0000
38.4800 4859 1.0000
38.5400 4878 1.0000
38.6000 4903 1.0000
38.6600 4836 1.0000
38.7200 5126 1.0000
38.7800 5329 1.0000
38.8400 5196 1.0000
38.9000 4773 1.0000
38.9600 4759 1.0000
39.0200 4864 1.0000
39.0800 4804 1.0000
39.1400 4722 1.0000
39.2000 4838 1.0000
39.2600 4887 1.0000
39.3200 4829 1.0000
39.3800 4895 1.0000
39.4400 4827 1.0000
39.5000 4816 1.0000
39.5600 4908 1.0000
39.6200 4871 1.0000
39.6800 4770 1.0000
39.7400 4825 1.0000
39.8000 4953 1.0000
39.8600 4788 1.0000
39.9200 4810 1.0000
39.9800 4826 1.0000
40.0400 4847 1.0000
40.1000 4999 1.0000
40.1600 4869 1.0000
40.2200 4763 1.0000
40.2800 4708 1.0000
40.3400 4796 1.0000
40.4000 4918 1.0000
40.4600 4831 1.0000
40.5200 4879 1.0000
40.5800 4882 1.0000
40.6400 4838 1.0000
40.7000 4874 1.0000
40.7600 4783 1.0000
40.8200 4858 1.0000
40.8800 4764 1.0000
40.9400 4998 1.0000
41.0000 4864 1.0000
41.0600 4847 1.0000
41.1200 4850 1.0000
41.1800 4927 1.0000
41.2400 4805 1.0000
41.3000 4890 1.0000
41.3600 4773 1.0000
41.4200 4952 1.0000
41.4800 4986 1.0000
41.5400 4969 1.0000
41.6000 4996 1.0000
41.6600 5103 1.0000
41.7200 5002 1.0000
41.7800 5015 1.0000
41.8400 5069 1.0000
41.9000 5079 1.0000
41.9600 5213 1.0000
42.0200 5101 1.0000
42.0800 5036 1.0000
42.1400 5205 1.0000
42.2000 5176 1.0000
42.2600 5104 1.0000
42.3200 5064 1.0000
42.3800 5236 1.0000
42.4400 5133 1.0000
42.5000 5266 1.0000
42.5600 5370 1.0000
42.6200 5451 1.0000
42.6800 5655 1.0000
42.7400 5852 1.0000
42.8000 6460 1.0000
42.8600 7781 1.0000
42.9200 10580 1.0000
42.9800 15037 1.0000
43.0400 23631 1.0000
43.1000 39857 1.0000
43.1600 46863 1.0000
43.2200 31082 1.0000
43.2800 24172 1.0000
43.3400 11531 1.0000
43.4000 8019 1.0000
43.4600 6465 1.0000
43.5200 5947 1.0000
43.5800 5674 1.0000
43.6400 5514 1.0000
43.7000 5273 1.0000
43.7600 5279 1.0000
43.8200 5152 1.0000
43.8800 5227 1.0000
43.9400 5022 1.0000
44.0000 4964 1.0000
44.0600 5019 1.0000
44.1200 5008 1.0000
44.1800 5070 1.0000
44.2400 4924 1.0000
44.3000 4921 1.0000
44.3600 4958 1.0000
44.4200 4988 1.0000
44.4800 5025 1.0000
44.5400 5050 1.0000
44.6000 5068 1.0000
44.6600 5012 1.0000
44.7200 4896 1.0000
44.7800 5121 1.0000
44.8400 4993 1.0000
44.9000 5067 1.0000
44.9600 5201 1.0000
45.0200 5288 1.0000
45.0800 5820 1.0000
45.1400 5833 1.0000
45.2000 5465 1.0000
45.2600 5129 1.0000
45.3200 4967 1.0000
45.3800 5151 1.0000
45.4400 5150 1.0000
45.5000 5065 1.0000
45.5600 4922 1.0000
45.6200 4928 1.0000
45.6800 4849 1.0000
45.7400 4879 1.0000
45.8000 4832 1.0000
45.8600 4911 1.0000
45.9200 4913 1.0000
45.9800 4911 1.0000
46.0400 4883 1.0000
46.1000 4909 1.0000
46.1600 5046 1.0000
46.2200 4930 1.0000
46.2800 4895 1.0000
46.3400 4927 1.0000
46.4000 5020 1.0000
46.4600 4933 1.0000
46.5200 4811 1.0000
46.5800 4898 1.0000
46.6400 4820 1.0000
46.7000 4982 1.0000
46.7600 4876 1.0000
46.8200 4914 1.0000
46.8800 4948 1.0000
46.9400 4947 1.0000
47.0000 4934 1.0000
47.0600 4943 1.0000
47.1200 4893 1.0000
47.1800 4892 1.0000
47.2400 4830 1.0000
47.3000 4957 1.0000
47.3600 4933 1.0000
47.4200 4939 1.0000
47.4800 4944 1.0000
47.5400 4969 1.0000
47.6000 4915 1.0000
47.6600 4942 1.0000
47.7200 4899 1.0000
47.7800 4886 1.0000
47.8400 5090 1.0000
47.9000 4809 1.0000
47.9600 4908 1.0000
48.0200 4943 1.0000
48.0800 4962 1.0000
48.1400 4946 1.0000
48.2000 4940 1.0000
48.2600 4974 1.0000
48.3200 4958 1.0000
48.3800 4995 1.0000
48.4400 5221 1.0000
48.5000 5197 1.0000
48.5600 5312 1.0000
48.6200 5281 1.0000
48.6800 5308 1.0000
48.7400 5334 1.0000
48.8000 5397 1.0000
48.8600 5312 1.0000
48.9200 5355 1.0000
48.9800 5272 1.0000
49.0400 5302 1.0000
49.1000 5212 1.0000
49.1600 5360 1.0000
49.2200 5452 1.0000
49.2800 5456 1.0000
49.3400 5649 1.0000
49.4000 5498 1.0000
49.4600 5504 1.0000
49.5200 5694 1.0000
49.5800 5569 1.0000
49.6400 6033 1.0000
49.7000 6041 1.0000
49.7600 6548 1.0000
49.8200 6863 1.0000
49.8800 7568 1.0000
49.9400 9017 1.0000
50.0000 11893 1.0000
50.0600 16965 1.0000
50.1200 27459 1.0000
50.1800 47899 1.0000
50.2400 83682 1.0000
50.3000 100211 1.0000
50.3600 73834 1.0000
50.4200 61813 1.0000
50.4800 35854 1.0000
50.5400 18320 1.0000
50.6000 11934 1.0000
50.6600 8870 1.0000
50.7200 7438 1.0000
50.7800 6816 1.0000
50.8400 6372 1.0000
50.9000 5799 1.0000
50.9600 5652 1.0000
51.0200 5650 1.0000
51.0800 5563 1.0000
51.1400 5464 1.0000
51.2000 5392 1.0000
51.2600 5263 1.0000
51.3200 5423 1.0000
51.3800 5147 1.0000
51.4400 5317 1.0000
51.5000 5225 1.0000
51.5600 5223 1.0000
51.6200 5090 1.0000
51.6800 4994 1.0000
51.7400 5084 1.0000
51.8000 5013 1.0000
51.8600 5107 1.0000
51.9200 4917 1.0000
51.9800 4981 1.0000
52.0400 5043 1.0000
52.1000 5095 1.0000
52.1600 4968 1.0000
52.2200 4989 1.0000
52.2800 5012 1.0000
52.3400 5035 1.0000
52.4000 4970 1.0000
52.4600 4998 1.0000
52.5200 5103 1.0000
52.5800 4995 1.0000
52.6400 5095 1.0000
52.7000 5066 1.0000
52.7600 4894 1.0000
52.8200 4889 1.0000
52.8800 5094 1.0000
52.9400 4894 1.0000
53.0000 4997 1.0000
53.0600 4856 1.0000
53.1200 5026 1.0000
53.1800 4949 1.0000
53.2400 5012 1.0000
53.3000 4810 1.0000
53.3600 4876 1.0000
53.4200 4869 1.0000
53.4800 4807 1.0000
53.5400 4952 1.0000
53.6000 4930 1.0000
53.6600 4993 1.0000
53.7200 4885 1.0000
53.7800 4885 1.0000
53.8400 4802 1.0000
53.9000 4937 1.0000
53.9600 4771 1.0000
54.0200 4823 1.0000
54.0800 4912 1.0000
54.1400 4913 1.0000
54.2000 4954 1.0000
54.2600 4908 1.0000
54.3200 4798 1.0000
54.3800 4857 1.0000
54.4400 4791 1.0000
54.5000 4837 1.0000
54.5600 4885 1.0000
54.6200 4846 1.0000
54.6800 4855 1.0000
54.7400 4790 1.0000
54.8000 4858 1.0000
54.8600 4868 1.0000
54.9200 4802 1.0000
54.9800 4766 1.0000
55.0400 4885 1.0000
55.1000 4801 1.0000
55.1600 4833 1.0000
55.2200 4944 1.0000
55.2800 4907 1.0000
55.3400 4900 1.0000
55.4000 4806 1.0000
55.4600 4851 1.0000
55.5200 4806 1.0000
55.5800 4711 1.0000
55.6400 4840 1.0000
55.7000 4731 1.0000
55.7600 4798 1.0000
55.8200 4827 1.0000
55.8800 4896 1.0000
55.9400 4793 1.0000
56.0000 4878 1.0000
56.0600 4940 1.0000
56.1200 4894 1.0000
56.1800 4783 1.0000
56.2400 4839 1.0000
56.3000 4825 1.0000
56.3600 4830 1.0000
56.4200 4817 1.0000
56.4800 4786 1.0000
56.5400 4722 1.0000
56.6000 4783 1.0000
56.6600 4877 1.0000
56.7200 4851 1.0000
56.7800 4778 1.0000
56.8400 4743 1.0000
56.9000 4878 1.0000
56.9600 4790 1.0000
57.0200 4867 1.0000
57.0800 4726 1.0000
57.1400 4835 1.0000
57.2000 4825 1.0000
57.2600 4956 1.0000
57.3200 4896 1.0000
57.3800 4743 1.0000
57.4400 4727 1.0000
57.5000 4818 1.0000
57.5600 4828 1.0000
57.6200 4800 1.0000
57.6800 4739 1.0000
57.7400 4879 1.0000
57.8000 4938 1.0000
57.8600 4735 1.0000
57.9200 4871 1.0000
57.9800 4810 1.0000
58.0400 4847 1.0000
58.1000 4851 1.0000
58.1600 4826 1.0000
58.2200 4803 1.0000
58.2800 4739 1.0000
58.3400 4787 1.0000
58.4000 4769 1.0000
58.4600 4816 1.0000
58.5200 4818 1.0000
58.5800 4848 1.0000
58.6400 4646 1.0000
58.7000 4775 1.0000
58.7600 4800 1.0000
58.8200 4859 1.0000
58.8800 4924 1.0000
58.9400 4762 1.0000
59.0000 4774 1.0000
59.0600 4795 1.0000
59.1200 4821 1.0000
59.1800 4807 1.0000
59.2400 4771 1.0000
59.3000 4762 1.0000
59.3600 4764 1.0000
59.4200 4808 1.0000
59.4800 4757 1.0000
59.5400 4687 1.0000
59.6000 4792 1.0000
59.6600 4857 1.0000
59.7200 4715 1.0000
59.7800 4796 1.0000
59.8400 4802 1.0000
59.9000 4682 1.0000
59.9600 4748 1.0000
60.0200 4769 1.0000
60.0800 4802 1.0000
60.1400 4768 1.0000
60.2000 4737 1.0000
60.2600 4721 1.0000
60.3200 4763 1.0000
60.3800 4892 1.0000
60.4400 4922 1.0000
60.5000 4894 1.0000
60.5600 4740 1.0000
60.6200 4864 1.0000
60.6800 4773 1.0000
60.7400 4929 1.0000
60.8000 4752 1.0000
60.8600 4821 1.0000
60.9200 4828 1.0000
60.9800 4818 1.0000
61.0400 4731 1.0000
61.1000 4956 1.0000
61.1600 4875 1.0000
61.2200 4827 1.0000
61.2800 4869 1.0000
61.3400 4695 1.0000
61.4000 4835 1.0000
61.4600 4851 1.0000
61.5200 4827 1.0000
61.5800 4846 1.0000
61.6400 4848 1.0000
61.7000 4759 1.0000
61.7600 4908 1.0000
61.8200 4757 1.0000
61.8800 4855 1.0000
61.9400 4778 1.0000
62.0000 4847 1.0000
62.0600 4845 1.0000
62.1200 4795 1.0000
62.1800 4806 1.0000
62.2400 4658 1.0000
62.3000 4801 1.0000
62.3600 4754 1.0000
62.4200 4839 1.0000
62.4800 4895 1.0000
62.5400 4712 1.0000
62.6000 4889 1.0000
62.6600 4818 1.0000
62.7200 4819 1.0000
62.7800 4723 1.0000
62.8400 4754 1.0000
62.9000 4845 1.0000
62.9600 4812 1.0000
63.0200 4755 1.0000
63.0800 4795 1.0000
63.1400 4727 1.0000
63.2000 4734 1.0000
63.2600 4651 1.0000
63.3200 4846 1.0000
63.3800 4766 1.0000
63.4400 4880 1.0000
63.5000 4802 1.0000
63.5600 4795 1.0000
63.6200 4620 1.0000
63.6800 4802 1.0000
63.7400 4762 1.0000
63.8000 4735 1.0000
63.8600 4738 1.0000
63.9200 4751 1.0000
63.9800 4864 1.0000
64.0400 4936 1.0000
64.1000 4747 1.0000
64.1600 4661 1.0000
64.2200 4746 1.0000
64.2800 4895 1.0000
64.3400 4713 1.0000
64.4000 4790 1.0000
64.4600 4725 1.0000
64.5200 4762 1.0000
64.5800 4881 1.0000
64.6400 4840 1.0000
64.7000 4786 1.0000
64.7600 4771 1.0000
64.8200 4757 1.0000
64.8800 4623 1.0000
64.9400 4841 1.0000
65.0000 4724 1.0000
65.0600 4834 1.0000
65.1200 4791 1.0000
65.1800 4984 1.0000
65.2400 4799 1.0000
65.3000 4726 1.0000
65.3600 4930 1.0000
65.4200 4821 1.0000
65.4800 4812 1.0000
65.5400 4822 1.0000
65.6000 4779 1.0000
65.6600 4761 1.0000
65.7200 4957 1.0000
65.7800 4989 1.0000
65.8400 5384 1.0000
65.9000 5023 1.0000
65.9600 4938 1.0000
66.0200 4785 1.0000
66.0800 4870 1.0000
66.1400 4937 1.0000
66.2000 4898 1.0000
66.2600 4840 1.0000
66.3200 4777 1.0000
66.3800 4876 1.0000
66.4400 4877 1.0000
66.5000 4852 1.0000
66.5600 4846 1.0000
66.6200 4718 1.0000
66.6800 4741 1.0000
66.7400 4732 1.0000
66.8000 4746 1.0000
66.8600 4815 1.0000
66.9200 4812 1.0000
66.9800 4860 1.0000
67.0400 4940 1.0000
67.1000 4805 1.0000
67.1600 4711 1.0000
67.2200 4854 1.0000
67.2800 4848 1.0000
67.3400 4813 1.0000
67.4000 4813 1.0000
67.4600 4803 1.0000
67.5200 4800 1.0000
67.5800 4813 1.0000
67.6400 4824 1.0000
67.7000 4828 1.0000
67.7600 4851 1.0000
67.8200 4807 1.0000
67.8800 4780 1.0000
67.9400 4717 1.0000
68.0000 4875 1.0000
68.0600 4697 1.0000
68.1200 4777 1.0000
68.1800 4874 1.0000
68.2400 4825 1.0000
68.3000 4775 1.0000
68.3600 4888 1.0000
68.4200 4713 1.0000
68.4800 4839 1.0000
68.5400 4816 1.0000
68.6000 4949 1.0000
68.6600 4861 1.0000
68.7200 4911 1.0000
68.7800 4947 1.0000
68.8400 4908 1.0000
68.9000 4849 1.0000
68.9600 4821 1.0000
69.0200 4882 1.0000
69.0800 4809 1.0000
69.1400 4757 1.0000
69.2000 4866 1.0000
69.2600 4794 1.0000
69.3200 5007 1.0000
69.3800 4865 1.0000
69.4400 4898 1.0000
69.5000 4843 1.0000
69.5600 4753 1.0000
69.6200 4838 1.0000
69.6800 4867 1.0000
69.7400 4878 1.0000
69.8000 4901 1.0000
69.8600 4877 1.0000
69.9200 4936 1.0000
69.9800 4834 1.0000
70.0400 4814 1.0000
70.1000 4800 1.0000
70.1600 4897 1.0000
70.2200 4848 1.0000
70.2800 4954 1.0000
70.3400 4824 1.0000
70.4000 4766 1.0000
70.4600 4972 1.0000
70.5200 4929 1.0000
70.5800 4939 1.0000
70.6400 4819 1.0000
70.7000 4998 1.0000
70.7600 4899 1.0000
70.8200 4875 1.0000
70.8800 4779 1.0000
70.9400 4854 1.0000
71.0000 4911 1.0000
71.0600 4804 1.0000
71.1200 4986 1.0000
71.1800 4942 1.0000
71.2400 5039 1.0000
71.3000 5043 1.0000
71.3600 5027 1.0000
71.4200 5154 1.0000
71.4800 4933 1.0000
71.5400 4992 1.0000
71.6000 4980 1.0000
71.6600 4931 1.0000
71.7200 4842 1.0000
71.7800 5051 1.0000
71.8400 4919 1.0000
71.9000 5002 1.0000
71.9600 5031 1.0000
72.0200 4894 1.0000
72.0800 4956 1.0000
72.1400 5019 1.0000
72.2000 5034 1.0000
72.2600 4940 1.0000
72.3200 5111 1.0000
72.3800 5139 1.0000
72.4400 5049 1.0000
72.5000 5107 1.0000
72.5600 5120 1.0000
72.6200 5011 1.0000
72.6800 5034 1.0000
72.7400 4921 1.0000
72.8000 5098 1.0000
72.8600 5022 1.0000
72.9200 5208 1.0000
72.9800 5145 1.0000
73.0400 5139 1.0000
73.1000 5158 1.0000
73.1600 5124 1.0000
73.2200 5351 1.0000
73.2800 5423 1.0000
73.3400 5434 1.0000
73.4000 5459 1.0000
73.4600 5702 1.0000
73.5200 5969 1.0000
73.5800 6265 1.0000
73.6400 6960 1.0000
73.7000 7623 1.0000
73.7600 9323 1.0000
73.8200 13055 1.0000
73.8800 21108 1.0000
73.9400 34403 1.0000
74.0000 39629 1.0000
74.0600 27669 1.0000
74.1200 22221 1.0000
74.1800 24604 1.0000
74.2400 20426 1.0000
74.3000 12794 1.0000
74.3600 8835 1.0000
74.4200 7129 1.0000
74.4800 6291 1.0000
74.5400 6015 1.0000
74.6000 5685 1.0000
74.6600 5477 1.0000
74.7200 5383 1.0000
74.7800 5290 1.0000
74.8400 5363 1.0000
74.9000 5248 1.0000
74.9600 5199 1.0000
75.0200 5206 1.0000
75.0800 5064 1.0000
75.1400 5169 1.0000
75.2000 5155 1.0000
75.2600 5084 1.0000
75.3200 5127 1.0000
75.3800 5158 1.0000
75.4400 4991 1.0000
75.5000 5018 1.0000
75.5600 5035 1.0000
75.6200 4878 1.0000
75.6800 4931 1.0000
75.7400 5050 1.0000
75.8000 4966 1.0000
75.8600 4987 1.0000
75.9200 4908 1.0000
75.9800 4910 1.0000
76.0400 5066 1.0000
76.1000 5084 1.0000
76.1600 5095 1.0000
76.2200 4982 1.0000
76.2800 5049 1.0000
76.3400 5072 1.0000
76.4000 4889 1.0000
76.4600 4959 1.0000
76.5200 5048 1.0000
76.5800 4911 1.0000
76.6400 4908 1.0000
76.7000 4965 1.0000
76.7600 5032 1.0000
76.8200 4916 1.0000
76.8800 4907 1.0000
76.9400 4937 1.0000
77.0000 5044 1.0000
77.0600 5100 1.0000
77.1200 4896 1.0000
77.1800 4940 1.0000
77.2400 4894 1.0000
77.3000 4989 1.0000
77.3600 4944 1.0000
77.4200 4955 1.0000
77.4800 5010 1.0000
77.5400 4832 1.0000
77.6000 4972 1.0000
77.6600 5072 1.0000
77.7200 4979 1.0000
77.7800 4976 1.0000
77.8400 4992 1.0000
77.9000 4977 1.0000
77.9600 5040 1.0000
78.0200 4971 1.0000
78.0800 4952 1.0000
78.1400 4898 1.0000
78.2000 4862 1.0000
78.2600 4910 1.0000
78.3200 5059 1.0000
78.3800 4903 1.0000
78.4400 4834 1.0000
78.5000 4877 1.0000
78.5600 4903 1.0000
78.6200 4902 1.0000
78.6800 4942 1.0000
78.7400 4885 1.0000
78.8000 4911 1.0000
78.8600 5012 1.0000
78.9200 4831 1.0000
78.9800 4963 1.0000
79.0400 4958 1.0000
79.1000 5051 1.0000
79.1600 5138 1.0000
79.2200 5144 1.0000
79.2800 5125 1.0000
79.3400 4973 1.0000
79.4000 4928 1.0000
79.4600 4985 1.0000
79.5200 5017 1.0000
79.5800 5118 1.0000
79.6400 4967 1.0000
79.7000 4977 1.0000
79.7600 5074 1.0000
79.8200 4866 1.0000
79.8800 4873 1.0000
79.9400 4813 1.0000
80.0000 4888 1.0000
80.0600 4910 1.0000
80.1200 4876 1.0000
80.1800 4990 1.0000
80.2400 4787 1.0000
80.3000 5040 1.0000
80.3600 5018 1.0000
80.4200 4916 1.0000
80.4800 4986 1.0000
80.5400 4875 1.0000
80.6000 4869 1.0000
80.6600 4832 1.0000
80.7200 4923 1.0000
80.7800 4961 1.0000
80.8400 5013 1.0000
80.9000 5005 1.0000
80.9600 4853 1.0000
81.0200 4924 1.0000
81.0800 4934 1.0000
81.1400 5000 1.0000
81.2000 4862 1.0000
81.2600 4966 1.0000
81.3200 5113 1.0000
81.3800 4828 1.0000
81.4400 5008 1.0000
81.5000 4981 1.0000
81.5600 4994 1.0000
81.6200 5009 1.0000
81.6800 5031 1.0000
81.7400 5023 1.0000
81.8000 4771 1.0000
81.8600 4990 1.0000
81.9200 4836 1.0000
81.9800 4911 1.0000
82.0400 4958 1.0000
82.1000 4842 1.0000
82.1600 5055 1.0000
82.2200 4903 1.0000
82.2800 4959 1.0000
82.3400 4901 1.0000
82.4000 4878 1.0000
82.4600 4915 1.0000
82.5200 4995 1.0000
82.5800 4890 1.0000
82.6400 4934 1.0000
82.7000 5018 1.0000
82.7600 4840 1.0000
82.8200 4997 1.0000
82.8800 4892 1.0000
82.9400 5036 1.0000
83.0000 4987 1.0000
83.0600 4989 1.0000
83.1200 4953 1.0000
83.1800 4946 1.0000
83.2400 4960 1.0000
83.3000 4834 1.0000
83.3600 4918 1.0000
83.4200 4915 1.0000
83.4800 4991 1.0000
83.5400 5004 1.0000
83.6000 4893 1.0000
83.6600 5013 1.0000
83.7200 4883 1.0000
83.7800 5060 1.0000
83.8400 4954 1.0000
83.9000 4887 1.0000
83.9600 5011 1.0000
84.0200 4908 1.0000
84.0800 4924 1.0000
84.1400 4992 1.0000
84.2000 4896 1.0000
84.2600 4815 1.0000
84.3200 4941 1.0000
84.3800 4884 1.0000
84.4400 5051 1.0000
84.5000 4899 1.0000
84.5600 4984 1.0000
84.6200 4932 1.0000
84.6800 4841 1.0000
84.7400 4948 1.0000
84.8000 4932 1.0000
84.8600 4882 1.0000
84.9200 4968 1.0000
84.9800 4827 1.0000
85.0400 4884 1.0000
85.1000 5046 1.0000
85.1600 4855 1.0000
85.2200 4940 1.0000
85.2800 5015 1.0000
85.3400 5117 1.0000
85.4000 4929 1.0000
85.4600 4917 1.0000
85.5200 4956 1.0000
85.5800 4954 1.0000
85.6400 4913 1.0000
85.7000 4928 1.0000
85.7600 5010 1.0000
85.8200 4924 1.0000
85.8800 4975 1.0000
85.9400 4942 1.0000
86.0000 4930 1.0000
86.0600 5039 1.0000
86.1200 5002 1.0000
86.1800 5023 1.0000
86.2400 5029 1.0000
86.3000 4844 1.0000
86.3600 4989 1.0000
86.4200 5082 1.0000
86.4800 4943 1.0000
86.5400 4913 1.0000
86.6000 5047 1.0000
86.6600 5021 1.0000
86.7200 5142 1.0000
86.7800 5018 1.0000
86.8400 5038 1.0000
86.9000 5071 1.0000
86.9600 4986 1.0000
87.0200 4968 1.0000
87.0800 4988 1.0000
87.1400 5039 1.0000
87.2000 5156 1.0000
87.2600 5149 1.0000
87.3200 5026 1.0000
87.3800 5054 1.0000
87.4400 5005 1.0000
87.5000 5046 1.0000
87.5600 4923 1.0000
87.6200 5065 1.0000
87.6800 5095 1.0000
87.7400 4967 1.0000
87.8000 5093 1.0000
87.8600 5199 1.0000
87.9200 5079 1.0000
87.9800 4974 1.0000
88.0400 5046 1.0000
88.1000 5114 1.0000
88.1600 5042 1.0000
88.2200 5094 1.0000
88.2800 5012 1.0000
88.3400 5039 1.0000
88.4000 5181 1.0000
88.4600 5058 1.0000
88.5200 5065 1.0000
88.5800 5072 1.0000
88.6400 5230 1.0000
88.7000 5228 1.0000
88.7600 5168 1.0000
88.8200 5287 1.0000
88.8800 5257 1.0000
88.9400 5247 1.0000
89.0000 5294 1.0000
89.0600 5404 1.0000
89.1200 5491 1.0000
89.1800 5603 1.0000
89.2400 5780 1.0000
89.3000 6007 1.0000
89.3600 6344 1.0000
89.4200 6664 1.0000
89.4800 7300 1.0000
89.5400 8363 1.0000
89.6000 10111 1.0000
89.6600 13726 1.0000
89.7200 19001 1.0000
89.7800 24380 1.0000
89.8400 24238 1.0000
89.9000 18780 1.0000
89.9600 15795 1.0000
90.0200 15654 1.0000
90.0800 16575 1.0000
90.1400 14454 1.0000
90.2000 10856 1.0000
90.2600 8607 1.0000
90.3200 7147 1.0000
90.3800 6439 1.0000
90.4400 6038 1.0000
90.5000 5805 1.0000
90.5600 5591 1.0000
90.6200 5534 1.0000
90.6800 5320 1.0000
90.7400 5202 1.0000
90.8000 5356 1.0000
90.8600 5219 1.0000
90.9200 5130 1.0000
90.9800 5231 1.0000
91.0400 5099 1.0000
91.1000 5166 1.0000
91.1600 5129 1.0000
91.2200 5186 1.0000
91.2800 5124 1.0000
91.3400 4987 1.0000
91.4000 5198 1.0000
91.4600 5027 1.0000
91.5200 5022 1.0000
91.5800 5038 1.0000
91.6400 5222 1.0000
91.7000 5114 1.0000
91.7600 5078 1.0000
91.8200 5033 1.0000
91.8800 5150 1.0000
91.9400 5115 1.0000
92.0000 5055 1.0000
92.0600 5127 1.0000
92.1200 5160 1.0000
92.1800 4985 1.0000
92.2400 4949 1.0000
92.3000 5069 1.0000
92.3600 5023 1.0000
92.4200 4963 1.0000
92.4800 5072 1.0000
92.5400 5004 1.0000
92.6000 5087 1.0000
92.6600 5101 1.0000
92.7200 4881 1.0000
92.7800 4928 1.0000
92.8400 5119 1.0000
92.9000 4944 1.0000
92.9600 5119 1.0000
93.0200 5092 1.0000
93.0800 5083 1.0000
93.1400 5063 1.0000
93.2000 4959 1.0000
93.2600 5042 1.0000
93.3200 4981 1.0000
93.3800 5030 1.0000
93.4400 5022 1.0000
93.5000 5011 1.0000
93.5600 4975 1.0000
93.6200 5037 1.0000
93.6800 4984 1.0000
93.7400 5045 1.0000
93.8000 4959 1.0000
93.8600 5084 1.0000
93.9200 4986 1.0000
93.9800 5001 1.0000
94.0400 5009 1.0000
94.1000 5156 1.0000
94.1600 5064 1.0000
94.2200 5131 1.0000
94.2800 4991 1.0000
94.3400 5083 1.0000
94.4000 5174 1.0000
94.4600 5169 1.0000
94.5200 5014 1.0000
94.5800 4996 1.0000
94.6400 5052 1.0000
94.7000 5239 1.0000
94.7600 5231 1.0000
94.8200 5480 1.0000
94.8800 5672 1.0000
94.9400 6057 1.0000
95.0000 6577 1.0000
95.0600 6376 1.0000
95.1200 5859 1.0000
95.1800 5666 1.0000
95.2400 5662 1.0000
95.3000 5807 1.0000
95.3600 5814 1.0000
95.4200 5535 1.0000
95.4800 5249 1.0000
95.5400 5017 1.0000
95.6000 5169 1.0000
95.6600 5036 1.0000
95.7200 5128 1.0000
95.7800 5076 1.0000
95.8400 5018 1.0000
95.9000 4968 1.0000
95.9600 4939 1.0000
96.0200 4967 1.0000
96.0800 4968 1.0000
96.1400 4987 1.0000
96.2000 5019 1.0000
96.2600 4951 1.0000
96.3200 4972 1.0000
96.3800 4978 1.0000
96.4400 4886 1.0000
96.5000 5084 1.0000
96.5600 5012 1.0000
96.6200 5016 1.0000
96.6800 5076 1.0000
96.7400 5050 1.0000
96.8000 5056 1.0000
96.8600 5029 1.0000
96.9200 4918 1.0000
96.9800 4890 1.0000
97.0400 5046 1.0000
97.1000 4967 1.0000
97.1600 5064 1.0000
97.2200 4916 1.0000
97.2800 5023 1.0000
97.3400 4987 1.0000
97.4000 5032 1.0000
97.4600 5019 1.0000
97.5200 4980 1.0000
97.5800 5031 1.0000
97.6400 5021 1.0000
97.7000 5002 1.0000
97.7600 4873 1.0000
97.8200 4998 1.0000
97.8800 4969 1.0000
97.9400 5082 1.0000
98.0000 4994 1.0000
98.0600 5061 1.0000
98.1200 5033 1.0000
98.1800 4994 1.0000
98.2400 4964 1.0000
98.3000 4926 1.0000
98.3600 4951 1.0000
98.4200 4986 1.0000
98.4800 5024 1.0000
98.5400 5024 1.0000
98.6000 5030 1.0000
98.6600 5002 1.0000
98.7200 4926 1.0000
98.7800 5013 1.0000
98.8400 4926 1.0000
98.9000 5082 1.0000
98.9600 5020 1.0000
99.0200 4916 1.0000
99.0800 5001 1.0000
99.1400 4844 1.0000
99.2000 4960 1.0000
99.2600 4889 1.0000
99.3200 5028 1.0000
99.3800 5049 1.0000
99.4400 5038 1.0000
99.5000 4954 1.0000
99.5600 5005 1.0000
99.6200 4934 1.0000
99.6800 4996 1.0000
99.7400 4988 1.0000
99.8000 5070 1.0000
99.8600 4918 1.0000
99.9200 4905 1.0000
99.9800 4968 1.0000
100.0000 5017 1.0000